Folder: SchoolProjects/MachineLearning/hw1/data/concrete

Note: MachineLearning/README.md
# 2019 Spring Machine Learning
## 이종욱 교수님

File: train.csv
Cement (component 1)(kg in a m^3 mixture),Blast Furnace Slag (component 2)(kg in a m^3 mixture),Fly Ash (component 3)(kg in a m^3 mixture),Water  (component 4)(kg in a m^3 mixture),Superplasticizer (component 5)(kg in a m^3 mixture),Coarse Aggregate  (component 6)(kg in a m^3 mixture),Fine Aggregate (component 7)(kg in a m^3 mixture),Age (day),"Concrete compressive strength(MPa, megapascals) "
425.0,106.3,0.0,153.5,16.5,852.1,887.1,28.0,60.29
190.3,0.0,125.2,161.9,9.9,1088.1,802.6,28.0,28.47
122.6,183.9,0.0,203.5,0.0,958.2,800.1,28.0,24.29
310.0,0.0,0.0,192.0,0.0,1012.0,830.0,120.0,38.7
425.0,106.3,0.0,151.4,18.6,936.0,803.7,3.0,36.3
362.6,189.0,0.0,164.9,11.6,944.7,755.8,28.0,71.3
356.0,119.0,0.0,160.0,9.0,1061.0,657.0,28.0,59.0
153.6,144.2,112.3,220.1,10.1,923.2,657.9,28.0,16.5
288.0,192.0,0.0,192.0,0.0,932.0,717.8,28.0,38.8
375.0,93.8,0.0,126.6,23.4,852.1,992.6,28.0,56.7
166.0,259.7,0.0,183.2,12.7,858.8,826.8,28.0,37.92
102.0,153.0,0.0,192.0,0.0,887.0,942.0,90.0,25.46
251.4,0.0,118.3,192.9,5.8,1043.6,754.3,28.0,33.27
155.0,0.0,143.0,193.0,9.0,1047.0,697.0,28.0,12.46
262.0,111.0,86.0,195.0,5.0,895.0,733.0,28.0,33.72
491.0,26.0,123.0,210.0,3.9,882.0,699.0,28.0,55.55
305.3,203.5,0.0,203.5,0.0,965.4,631.0,7.0,25.89
233.8,0.0,94.6,197.9,4.6,947.0,852.2,14.0,22.14
251.4,0.0,118.3,188.5,5.8,1028.4,757.7,56.0,36.97
400.0,0.0,0.0,187.0,0.0,1025.0,745.0,7.0,30.14
275.0,180.0,120.0,162.0,10.4,830.0,765.0,28.0,76.24
300.0,0.0,0.0,184.0,0.0,1075.0,795.0,7.0,15.58
387.0,20.0,94.0,157.0,14.3,938.0,845.0,28.0,50.24
284.0,15.0,141.0,179.0,5.5,842.0,801.0,56.0,44.52
375.0,0.0,0.0,186.0,0.0,1038.0,758.0,7.0,26.06
480.0,0.0,0.0,192.0,0.0,936.0,721.0,90.0,54.28
202.0,11.0,141.0,206.0,1.7,942.0,801.0,7.0,15.07
349.0,0.0,0.0,192.0,0.0,1047.0,806.0,3.0,14.99
165.0,0.0,143.6,163.8,0.0,1005.6,900.9,14.0,16.88
312.9,160.5,0.0,177.6,9.6,916.6,759.5,28.0,52.45
220.8,147.2,0.0,185.7,0.0,1055.0,744.3,28.0,25.75
380.0,0.0,0.0,228.0,0.0,932.0,670.0,180.0,53.1
380.0,95.0,0.0,228.0,0.0,932.0,594.0,28.0,36.45
350.0,0.0,0.0,203.0,0.0,974.0,775.0,14.0,22.53
304.0,76.0,0.0,228.0,0.0,932.0,670.0,90.0,49.19
331.0,0.0,0.0,192.0,0.0,978.0,825.0,7.0,16.26
251.4,0.0,118.3,192.9,5.8,1043.6,754.3,3.0,11.98
304.0,76.0,0.0,228.0,0.0,932.0,670.0,270.0,54.38
265.0,111.0,86.0,195.0,6.0,833.0,790.0,28.0,41.54
393.0,0.0,0.0,192.0,0.0,940.0,758.0,3.0,19.11
250.0,0.0,95.7,187.4,5.5,956.9,861.2,56.0,38.33
237.5,237.5,0.0,228.0,0.0,932.0,594.0,28.0,30.08
212.6,0.0,100.4,159.4,10.4,1003.8,903.8,28.0,37.4
385.0,0.0,0.0,186.0,0.0,966.0,763.0,28.0,31.35
272.6,0.0,89.6,198.7,10.6,931.3,762.2,28.0,32.25
236.0,0.0,0.0,193.0,0.0,968.0,885.0,7.0,9.99
203.5,305.3,0.0,203.5,0.0,963.4,630.0,3.0,9.56
313.0,0.0,113.0,178.0,8.0,1002.0,689.0,28.0,36.8
133.0,200.0,0.0,192.0,0.0,927.4,839.2,90.0,36.59
200.0,133.0,0.0,192.0,0.0,965.4,806.2,3.0,11.41
316.1,210.7,0.0,185.7,0.0,977.0,689.3,28.0,38.7
374.0,189.2,0.0,170.1,10.1,926.1,756.7,91.0,64.9
150.0,237.0,0.0,174.0,12.0,1069.0,675.0,28.0,37.43
298.2,0.0,107.0,209.7,11.1,879.6,744.2,28.0,31.88
362.6,189.0,0.0,164.9,11.6,944.7,755.8,7.0,55.9
136.0,162.0,126.0,172.0,10.0,923.0,764.0,28.0,29.07
193.5,290.2,0.0,185.7,0.0,998.2,704.3,7.0,17.2
190.7,0.0,125.4,162.1,7.8,1090.0,804.0,14.0,21.06
289.0,0.0,0.0,192.0,0.0,913.2,895.3,3.0,11.65
146.0,230.0,0.0,202.0,3.0,827.0,872.0,28.0,33.06
148.0,0.0,182.0,181.0,15.0,839.0,884.0,28.0,15.52
359.0,19.0,141.0,154.0,10.9,942.0,801.0,7.0,35.75
143.0,169.0,143.0,191.0,8.0,967.0,643.0,28.0,29.72
139.6,209.4,0.0,192.0,0.0,1047.0,806.9,3.0,8.06
186.2,124.1,0.0,185.7,0.0,1083.4,764.3,7.0,8.0
366.0,187.0,0.0,191.0,7.0,824.0,757.0,28.0,65.91
424.0,22.0,132.0,168.0,8.9,822.0,750.0,56.0,74.36
379.5,151.2,0.0,153.9,15.9,1134.3,605.0,3.0,28.6
388.6,97.1,0.0,157.9,12.1,852.1,925.7,91.0,57.6
212.6,0.0,100.4,159.4,10.4,1003.8,903.8,56.0,44.4
255.5,170.3,0.0,185.7,0.0,1026.6,724.3,7.0,17.24
230.0,0.0,118.3,195.5,4.6,1029.4,758.6,28.0,24.48
337.9,189.0,0.0,174.9,9.5,944.7,755.8,91.0,67.8
225.0,0.0,0.0,181.0,0.0,1113.0,833.0,7.0,11.17
218.9,0.0,124.1,158.5,11.3,1078.7,794.9,3.0,15.34
290.4,0.0,96.2,168.1,9.4,961.2,865.0,100.0,48.97
266.2,112.3,87.5,177.9,10.4,909.7,744.5,28.0,39.42
325.6,166.4,0.0,174.0,8.9,881.6,790.0,28.0,61.24
213.5,0.0,174.2,154.6,11.7,1052.3,775.5,14.0,33.7
212.0,0.0,124.8,159.0,7.8,1085.4,799.5,56.0,45.08
310.0,0.0,0.0,192.0,0.0,971.0,850.6,3.0,9.87
250.0,0.0,95.7,187.4,5.5,956.9,861.2,3.0,13.82
167.0,75.4,167.0,164.0,7.9,1007.3,770.1,100.0,56.81
380.0,95.0,0.0,228.0,0.0,932.0,594.0,365.0,43.7
190.0,190.0,0.0,228.0,0.0,932.0,670.0,90.0,42.33
275.0,0.0,0.0,183.0,0.0,1088.0,808.0,28.0,24.5
234.0,156.0,0.0,189.0,5.9,981.0,760.0,28.0,39.3
194.7,0.0,100.5,170.2,7.5,998.0,901.8,28.0,37.27
203.5,305.3,0.0,203.5,0.0,963.4,630.0,7.0,19.54
178.0,129.8,118.6,179.9,3.6,1007.3,746.8,56.0,48.59
155.0,183.0,0.0,193.0,9.0,877.0,868.0,28.0,23.79
401.8,94.7,0.0,147.4,11.4,946.8,852.1,28.0,68.5
475.0,118.8,0.0,181.1,8.9,852.1,781.5,7.0,55.6
249.1,0.0,98.8,158.1,12.8,987.8,889.0,28.0,30.85
255.0,0.0,0.0,192.0,0.0,889.8,945.0,90.0,21.86
150.9,0.0,183.9,166.6,11.6,991.2,772.2,28.0,15.57
145.7,172.6,0.0,181.9,3.4,985.8,816.8,28.0,23.74
200.0,0.0,0.0,180.0,0.0,1125.0,845.0,28.0,12.25
272.8,181.9,0.0,185.7,0.0,1012.4,714.3,28.0,31.38
376.0,0.0,0.0,214.6,0.0,1003.5,762.4,14.0,25.62
251.4,0.0,118.3,188.5,6.4,1028.4,757.7,56.0,36.64
237.5,237.5,0.0,228.0,0.0,932.0,594.0,180.0,36.25
194.7,0.0,100.5,165.6,7.5,1006.4,905.9,3.0,12.45
333.0,0.0,0.0,192.0,0.0,931.2,842.6,7.0,23.4
475.0,0.0,59.0,142.0,1.9,1098.0,641.0,28.0,57.23
318.8,212.5,0.0,155.7,14.3,852.1,880.4,91.0,68.1
339.0,0.0,0.0,197.0,0.0,968.0,781.0,365.0,38.89
167.0,75.4,167.0,164.0,7.9,1007.3,770.1,3.0,15.52
376.0,0.0,0.0,214.6,0.0,1003.5,762.4,100.0,43.06
238.2,158.8,0.0,185.7,0.0,1040.6,734.3,7.0,15.69
194.7,0.0,100.5,165.6,7.5,1006.4,905.9,14.0,24.99
531.3,0.0,0.0,141.8,28.2,852.1,893.7,28.0,56.4
376.0,0.0,0.0,214.6,0.0,1003.5,762.4,56.0,36.3
323.7,282.8,0.0,183.8,10.3,942.7,659.9,7.0,49.8
252.0,0.0,0.0,185.0,0.0,1111.0,784.0,28.0,19.69
382.5,0.0,0.0,185.7,0.0,1047.8,739.3,28.0,37.44
168.0,42.1,163.8,121.8,5.7,1058.7,780.1,56.0,32.85
350.0,0.0,0.0,203.0,0.0,974.0,775.0,90.0,31.35
387.0,20.0,94.0,157.0,11.6,938.0,845.0,7.0,41.67
190.7,0.0,125.4,162.1,7.8,1090.0,804.0,100.0,40.57
212.6,0.0,100.4,159.4,10.4,1003.8,903.8,100.0,47.74
323.7,282.8,0.0,183.8,10.3,942.7,659.9,3.0,28.3
252.0,0.0,0.0,185.0,0.0,1111.0,784.0,7.0,13.71
284.0,120.0,0.0,168.0,7.0,970.0,794.0,28.0,40.93
275.1,0.0,121.4,159.5,9.9,1053.6,777.5,14.0,38.77
362.6,189.0,0.0,164.9,11.6,944.7,755.8,28.0,71.3
397.0,0.0,0.0,185.7,0.0,1040.6,734.3,7.0,25.45
136.0,196.0,98.0,199.0,6.0,847.0,783.0,28.0,26.97
355.9,0.0,141.6,193.3,11.0,801.4,778.4,28.0,40.87
250.0,0.0,95.7,187.4,5.5,956.9,861.2,100.0,42.35
310.0,0.0,0.0,192.0,0.0,1012.0,830.0,3.0,11.85
389.9,189.0,0.0,145.9,22.0,944.7,755.8,28.0,74.5
475.0,118.8,0.0,181.1,8.9,852.1,781.5,28.0,68.3
446.0,24.0,79.0,162.0,11.6,967.0,712.0,3.0,35.36
332.5,142.5,0.0,228.0,0.0,932.0,594.0,7.0,30.28
246.8,0.0,125.1,143.3,12.0,1086.8,800.9,56.0,60.32
144.0,0.0,175.0,158.0,18.0,943.0,844.0,28.0,15.42
425.0,106.3,0.0,153.5,16.5,852.1,887.1,56.0,64.3
362.6,189.0,0.0,164.9,11.6,944.7,755.8,28.0,71.3
287.0,121.0,94.0,188.0,9.0,904.0,696.0,28.0,41.94
116.0,173.0,0.0,192.0,0.0,909.8,891.9,90.0,31.02
149.0,118.0,92.0,183.0,7.0,953.0,780.0,28.0,23.52
231.8,0.0,121.6,174.0,6.7,1056.4,778.5,28.0,33.73
446.0,24.0,79.0,162.0,11.6,967.0,712.0,7.0,39.3
182.0,45.2,122.0,170.2,8.2,1059.4,780.7,3.0,7.32
250.0,0.0,95.7,187.4,5.5,956.9,861.2,14.0,24.92
238.0,0.0,0.0,186.0,0.0,1119.0,789.0,7.0,12.05
302.0,0.0,0.0,203.0,0.0,974.0,817.0,28.0,21.75
155.6,243.5,0.0,180.3,10.7,1022.0,697.7,28.0,37.36
164.0,0.0,200.0,181.0,13.0,849.0,846.0,28.0,15.09
310.0,0.0,0.0,192.0,0.0,970.0,850.0,180.0,37.33
213.5,0.0,174.2,159.2,11.7,1043.6,771.9,100.0,52.96
540.0,0.0,0.0,173.0,0.0,1125.0,613.0,270.0,74.17
154.8,0.0,142.8,193.3,9.1,877.2,867.7,28.0,9.74
202.0,11.0,141.0,206.0,1.7,942.0,801.0,28.0,21.97
275.1,0.0,121.4,159.5,9.9,1053.6,777.5,56.0,56.85
288.0,121.0,0.0,177.0,7.0,908.0,829.0,28.0,42.13
286.3,200.9,0.0,144.7,11.2,1004.6,803.7,3.0,24.4
313.3,0.0,113.0,178.5,8.0,1001.9,688.7,28.0,36.8
424.0,22.0,132.0,168.0,8.9,822.0,750.0,3.0,32.11
152.6,238.7,0.0,200.0,6.3,1001.8,683.9,28.0,26.86
313.0,145.0,0.0,178.0,8.0,1002.0,689.0,28.0,41.05
298.0,0.0,107.0,210.0,11.0,880.0,744.0,28.0,31.87
379.5,151.2,0.0,153.9,15.9,1134.3,605.0,28.0,52.2
162.0,190.1,148.1,178.8,18.8,838.1,741.4,28.0,33.76
250.0,0.0,95.7,191.8,5.3,948.9,857.2,14.0,24.66